Folder: latex/化学生命工学実験4/無機物理化学実験/3/data/実験4配布ファイル/PXRD (part 2)

File: 20231122_sifsix_powder_2θ_θ.asc
*TYPE		=  Raw
*CLASS		=  ASCII CLASS
*SAMPLE		=
*COMMENT	=
*FNAME		=  20231122_sifsix_powder_2θ_θ.asc
*DATE		=  22-Nov-23 15:11

*GROUP_COUNT	=  1
*GONIO		=  MiniFlex 300/600 +, 150
*ATTACHMENT	=  6サンプルチェンジャ
*ASC		=  0, 0, 0.000000, 0.000000
*FILTER		=  K-beta(x1)
*C_MONOCHRO	=  None, 0.000000
*SLIT_NAME	=  0, IHS
*SLIT_NAME	=  1, DS
*SLIT_NAME	=  2, SS
*SLIT_NAME	=  3, RS
*COUNTER	=  D/teX Ultra, 0
*POS_FORMAT	=  0
*SCAN_AXIS	=  2theta/theta
*MEAS_MODE	=  Continuous Scanning
*TARGET		=  29
*XRAY_CHAR	=  K-ALPHA
*WAVE_LENGTH1	=  1.54059
*WAVE_LENGTH2	=  1.54441
*THICKNESS	=  0, 0.000000
*MU		=  0, 0.000000
*SCAN_MODE	=  2theta/theta
*SPEED_DIM	=  sec./step
*XUNIT		=  deg.
*YUNIT		=  cps
*SCALE_MODE	=  1
*REP_COUNT	=  0
*SE_COUNT	=  0
*STD_MATERIAL	=  Unknown, Unknown, 0.000000, 0.000000, 0.000000, 0.000000, 0.000000, 0.000000
*LATT_CONS	=  0, Unknown, Unknown, 0.000000, 0.000000, 0.000000, 0.000000, 0.000000, 0.000000
*SEC_COUNT	=  1
*TSPEC_SIZE	=  0
*EXTRA_SIZE	=  0
*MEMO		=

*BEGIN
*GROUP		=  0
*START		=  3
*STOP		=  55
*STEP		=  0.01
*OFFSET		=  0.000000
*SPEED		=  0.06
*SLIT_SPEC	=  0, 10.0mm, 10, 0.000000
*SLIT_SPEC	=  1, 1.250deg, 1.25, 0.000000
*SLIT_SPEC	=  2, 13.0mm(Open), 13, 0.000000
*SLIT_SPEC	=  3, 13.0mm, 13, 0.000000
*KV		=  40
*MA		=  15
*LOW		=  0.000000
*HIGH		=  0.000000
*CTEMPER	=  0, 0.000000
*CTEMPER	=  1, 0.000000
*CTEMPER	=  2, 0.000000
*PAREX		=  0, 0.000000
*PAREX		=  1, 0.000000
*PAREX		=  2, 0.000000
*PAREX		=  3, 0.000000
*PAREX		=  4, 0.000000
*PAREX		=  5, 0.000000
*PAREX		=  6, 0.000000
*PAREX		=  7, 0.000000
*PAREX		=  8, 0.000000
*PAREX		=  9, 0.000000
*PAREX		=  10, 0.000000
*PAREX		=  11, 0.000000
*PAREX		=  12, 0.000000
*PAREX		=  13, 0.000000
*PAREX		=  14, 0.000000
*PAREX		=  15, 0.000000
*FULL_SCALE	=  59580
*INDEX		=  0, 0, 0
*COUNT		=  5201
76, 83, 88, 93
98, 83, 92, 100
97, 90, 105, 107
74, 77, 76, 85
77, 91, 86, 73
80, 77, 86, 72
63, 57, 65, 81
66, 56, 63, 75
66, 57, 67, 66
59, 56, 68, 66
74, 73, 73, 63
72, 72, 65, 69
67, 70, 72, 62
70, 64, 59, 57
59, 65, 67, 64
62, 62, 59, 55
59, 55, 60, 52
58, 68, 64, 68
69, 72, 61, 66
61, 67, 60, 63
66, 61, 65, 58
86, 93, 81, 65
70, 75, 76, 75
85, 95, 107, 105
282, 315, 347, 408
1702, 1507, 1310, 1058
146, 147, 139, 122
96, 89, 106, 117
102, 109, 102, 104
103, 99, 91, 81
121, 107, 98, 97
96, 95, 109, 93
82, 100, 102, 100
110, 103, 112, 101
98, 100, 92, 91
103, 102, 101, 92
102, 94, 92, 98
98, 103, 110, 120
117, 122, 130, 140
264, 251, 257, 283
219, 228, 243, 244
831, 887, 967, 1064
474, 456, 431, 372
166, 170, 168, 173
121, 149, 124, 115
141, 125, 128, 143
136, 131, 125, 136
129, 122, 129, 132
136, 137, 122, 117
122, 134, 140, 132
124, 127, 135, 133
175, 186, 178, 176
335, 378, 367, 376
338, 309, 272, 252
167, 158, 158, 165
129, 135, 155, 156
171, 157, 152, 142
171, 162, 152, 162
151, 158, 169, 178
174, 168, 164, 168
169, 171, 181, 185
176, 188, 174, 183
218, 210, 208, 211
302, 332, 324, 325
574, 655, 701, 780
2930, 2843, 2662, 2478
398, 410, 380, 358
293, 277, 259, 268
267, 261, 238, 244
228, 223, 231, 216
235, 226, 229, 228
204, 219, 224, 210
226, 233, 230, 238
240, 239, 230, 230
376, 355, 350, 377
280, 292, 271, 265
229, 228, 207, 206
230, 214, 205, 216
237, 231, 223, 235
202, 236, 234, 244
223, 226, 221, 240
348, 344, 320, 350
463, 413, 415, 404
273, 260, 264, 261
268, 264, 278, 279
238, 234, 239, 248
263, 250, 259, 256
261, 261, 278, 268
284, 303, 305, 297
398, 422, 448, 447
529, 522, 494, 483
338, 332, 326, 334
367, 373, 361, 374
536, 527, 523, 552
935, 994, 989, 992
872, 811, 803, 757
372, 387, 386, 372
421, 404, 404, 373
466, 455, 432, 449
457, 483, 510, 514
500, 521, 527, 496
853, 827, 806, 834
703, 663, 631, 637
410, 395, 372, 373
403, 409, 386, 431
961, 1057, 1038, 1036
504, 484, 458, 451
421, 404, 402, 395
419, 428, 425, 409
362, 359, 358, 369
396, 394, 384, 400
485, 486, 493, 466
495, 496, 485, 489
412, 397, 408, 396
370, 366, 366, 365
349, 360, 355, 368
417, 420, 419, 452
926, 978, 1001, 1061
512, 499, 505, 460
426, 423, 419, 431
456, 488, 510, 496
583, 540, 537, 572
428, 387, 389, 392
372, 376, 387, 373
361, 376, 378, 349
343, 351, 343, 326
406, 419, 397, 408
364, 379, 393, 392
344, 325, 331, 307
335, 320, 341, 352
378, 376, 367, 352
348, 339, 339, 328
307, 327, 335, 316
321, 326, 316, 305
293, 313, 298, 314
332, 320, 305, 309
319, 328, 332, 317
322, 340, 330, 320
303, 286, 321, 304
314, 327, 332, 305
298, 301, 337, 310
334, 320, 317, 291
341, 345, 339, 338
353, 353, 355, 342
359, 347, 343, 337
332, 354, 350, 326
442, 429, 436, 460
386, 370, 352, 351
353, 372, 377, 376
365, 364, 359, 352
371, 333, 333, 351
393, 391, 415, 417
393, 350, 347, 356
343, 329, 341, 360
369, 376, 372, 356
430, 441, 440, 453
482, 474, 474, 477
394, 422, 392, 370
357, 358, 360, 356
354, 350, 351, 358
409, 425, 415, 422
415, 422, 405, 387
386, 357, 356, 380
352, 342, 361, 349
372, 356, 341, 348
368, 365, 377, 375
399, 398, 395, 406
350, 374, 384, 375
390, 384, 371, 357
366, 369, 353, 348
352, 343, 372, 369
385, 396, 373, 376
386, 375, 332, 357
409, 382, 395, 396
415, 421, 390, 403
366, 355, 364, 363
338, 348, 330, 348
351, 363, 367, 357
354, 337, 345, 358
349, 354, 352, 358
347, 354, 375, 358
362, 387, 369, 362
367, 362, 372, 385
365, 370, 381, 350
388, 377, 387, 383
380, 354, 366, 361
397, 399, 385, 398
409, 425, 413, 416
560, 525, 513, 542
456, 448, 470, 473
402, 398, 420, 441
428, 429, 450, 436
493, 517, 500, 529
461, 447, 453, 463
407, 381, 397, 427
453, 468, 476, 496
547, 558, 555, 566
407, 429, 454, 470
420, 418, 427, 417
467, 448, 454, 468
493, 496, 507, 519
458, 450, 420, 415
404, 407, 411, 400
427, 418, 433, 404
476, 484, 487, 450
484, 460, 470, 461
454, 462, 464, 421
444, 421, 425, 449
400, 398, 414, 436
443, 406, 381, 398
394, 440, 450, 438
447, 458, 470, 476
461, 459, 464, 470
501, 472, 478, 508
398, 407, 423, 411
444, 426, 407, 426
435, 434, 418, 403
413, 431, 445, 417
455, 452, 421, 442
420, 457, 465, 467
457, 453, 447, 444
441, 463, 475, 480
476, 458, 470, 486
490, 495, 482, 480
455, 480, 470, 484
457, 501, 478, 482
459, 475, 472, 500
482, 451, 461, 439
440, 461, 503, 469
464, 403, 389, 427
440, 413, 389, 411
410, 420, 432, 414
426, 428, 410, 424
405, 423, 437, 414
440, 435, 412, 405
414, 416, 407, 393
394, 394, 405, 416
424, 423, 382, 382
422, 419, 449, 407
404, 394, 378, 398
379, 364, 395, 388
368, 384, 361, 381
385, 394, 396, 381
385, 405, 397, 389
409, 389, 374, 397
406, 403, 405, 416
393, 404, 401, 388
386, 407, 402, 405
423, 407, 391, 375
409, 420, 406, 401
422, 426, 425, 412
403, 435, 422, 384
414, 414, 402, 400
380, 406, 429, 404
414, 407, 401, 403
393, 419, 432, 380
392, 390, 417, 393
392, 369, 392, 409
383, 388, 401, 388
379, 373, 361, 371
357
*END

*EOF

File: 20231124_sifsix_singlecrystal_2θ_θ.asc
*TYPE		=  Raw
*CLASS		=  ASCII CLASS
*SAMPLE		=
*COMMENT	=
*FNAME		=  20231124_sifsix_singlecrystal_2θ_θ.asc
*DATE		=  24-Nov-23 13:30

*GROUP_COUNT	=  1
*GONIO		=  MiniFlex 300/600 +, 150
*ATTACHMENT	=  6サンプルチェンジャ
*ASC		=  0, 0, 0.000000, 0.000000
*FILTER		=  K-beta(x1)
*C_MONOCHRO	=  None, 0.000000
*SLIT_NAME	=  0, IHS
*SLIT_NAME	=  1, DS
*SLIT_NAME	=  2, SS
*SLIT_NAME	=  3, RS
*COUNTER	=  D/teX Ultra, 0
*POS_FORMAT	=  0
*SCAN_AXIS	=  2theta/theta
*MEAS_MODE	=  Continuous Scanning
*TARGET		=  29
*XRAY_CHAR	=  K-ALPHA
*WAVE_LENGTH1	=  1.54059
*WAVE_LENGTH2	=  1.54441
*THICKNESS	=  0, 0.000000
*MU		=  0, 0.000000
*SCAN_MODE	=  2theta/theta
*SPEED_DIM	=  sec./step
*XUNIT		=  deg.
*YUNIT		=  cps
*SCALE_MODE	=  1
*REP_COUNT	=  0
*SE_COUNT	=  0
*STD_MATERIAL	=  Unknown, Unknown, 0.000000, 0.000000, 0.000000, 0.000000, 0.000000, 0.000000
*LATT_CONS	=  0, Unknown, Unknown, 0.000000, 0.000000, 0.000000, 0.000000, 0.000000, 0.000000
*SEC_COUNT	=  1
*TSPEC_SIZE	=  0
*EXTRA_SIZE	=  0
*MEMO		=

*BEGIN
*GROUP		=  0
*START		=  3
*STOP		=  55
*STEP		=  0.01
*OFFSET		=  0.000000
*SPEED		=  0.06
*SLIT_SPEC	=  0, 10.0mm, 10, 0.000000
*SLIT_SPEC	=  1, 1.250deg, 1.25, 0.000000
*SLIT_SPEC	=  2, 13.0mm(Open), 13, 0.000000
*SLIT_SPEC	=  3, 13.0mm, 13, 0.000000
*KV		=  40
*MA		=  15
*LOW		=  0.000000
*HIGH		=  0.000000
*CTEMPER	=  0, 0.000000
*CTEMPER	=  1, 0.000000
*CTEMPER	=  2, 0.000000
*PAREX		=  0, 0.000000
*PAREX		=  1, 0.000000
*PAREX		=  2, 0.000000
*PAREX		=  3, 0.000000
*PAREX		=  4, 0.000000
*PAREX		=  5, 0.000000
*PAREX		=  6, 0.000000
*PAREX		=  7, 0.000000
*PAREX		=  8, 0.000000
*PAREX		=  9, 0.000000
*PAREX		=  10, 0.000000
*PAREX		=  11, 0.000000
*PAREX		=  12, 0.000000
*PAREX		=  13, 0.000000
*PAREX		=  14, 0.000000
*PAREX		=  15, 0.000000
*FULL_SCALE	=  223520
*INDEX		=  0, 0, 0
*COUNT		=  5201
476, 466, 436, 448
448, 451, 430, 442
445, 435, 436, 435
446, 443, 448, 458
432, 458, 457, 443
441, 450, 464, 490
445, 431, 421, 423
391, 382, 392, 416
345, 356, 360, 354
358, 358, 328, 329
316, 321, 335, 329
320, 336, 326, 320
341, 370, 372, 343
324, 306, 321, 338
307, 307, 297, 292
301, 308, 312, 311
298, 290, 282, 304
288, 299, 313, 302
305, 298, 286, 298
311, 301, 305, 309
294, 290, 290, 292
320, 305, 319, 322
319, 308, 314, 330
347, 365, 350, 334
716, 734, 811, 879
3298, 2694, 2072, 1578
405, 395, 407, 394
360, 337, 339, 337
362, 345, 367, 350
298, 312, 299, 334
336, 339, 316, 327
293, 304, 323, 320
321, 313, 326, 323
335, 315, 324, 317
331, 321, 326, 318
302, 297, 304, 318
300, 302, 315, 323
347, 344, 334, 319
500, 522, 545, 588
4856, 5137, 5378, 5417
640, 618, 628, 574
1127, 1246, 1351, 1422
580, 560, 531, 509
416, 386, 392, 414
380, 398, 372, 352
355, 344, 351, 355
340, 348, 345, 316
326, 346, 341, 344
356, 328, 324, 313
313, 317, 323, 308
324, 337, 342, 308
365, 364, 369, 369
562, 598, 644, 671
449, 446, 425, 420
324, 338, 339, 343
330, 338, 356, 335
323, 323, 317, 312
344, 336, 307, 314
316, 311, 314, 318
309, 328, 325, 322
336, 326, 327, 306
317, 323, 342, 335
378, 376, 364, 356
500, 499, 493, 520
798, 873, 887, 977
2959, 2700, 2332, 2037
542, 503, 503, 507
431, 444, 417, 440
401, 403, 389, 382
356, 354, 359, 367
322, 340, 361, 368
372, 342, 352, 352
365, 391, 372, 361
345, 365, 372, 362
510, 530, 560, 568
357, 360, 367, 364
349, 350, 348, 367
344, 347, 338, 336
352, 370, 363, 364
343, 318, 340, 331
364, 349, 374, 383
454, 485, 519, 514
485, 498, 476, 466
423, 423, 393, 409
400, 377, 381, 380
381, 380, 376, 381
367, 354, 358, 336
365, 365, 358, 347
359, 399, 400, 409
465, 498, 528, 521
613, 607, 593, 556
562, 582, 579, 578
759, 765, 795, 839
5488, 6442, 7224, 7896
9479, 9248, 9053, 8904
5944, 5324, 4793, 4040
846, 870, 837, 826
768, 759, 744, 715
695, 705, 702, 668
651, 636, 613, 654
833, 926, 959, 1040
1332, 1324, 1303, 1260
985, 950, 893, 852
527, 511, 513, 506
503, 543, 575, 549
1234, 1308, 1354, 1405
598, 581, 565, 550
547, 562, 555, 563
536, 507, 495, 498
451, 449, 456, 480
492, 468, 466, 491
552, 554, 539, 559
543, 530, 519, 520
442, 445, 463, 473
439, 434, 405, 437
414, 422, 427, 443
523, 486, 500, 536
997, 986, 1020, 1068
539, 538, 522, 497
446, 469, 474, 465
625, 588, 608, 654
573, 582, 615, 580
463, 422, 442, 433
426, 407, 414, 395
399, 412, 407, 409
375, 373, 385, 388
468, 477, 503, 499
424, 443, 432, 440
361, 343, 388, 400
369, 380, 391, 368
400, 390, 398, 399
349, 360, 374, 383
356, 363, 351, 347
361, 342, 353, 356
350, 350, 363, 367
365, 367, 371, 331
348, 319, 340, 362
366, 361, 339, 356
357, 367, 345, 351
372, 358, 360, 341
353, 346, 366, 369
358, 362, 387, 368
367, 382, 382, 375
395, 396, 386, 386
391, 380, 366, 363
364, 365, 367, 352
472, 470, 491, 482
401, 416, 431, 420
454, 436, 499, 537
1167, 1160, 1085, 1065
760, 781, 773, 748
759, 736, 732, 756
399, 397, 404, 398
373, 391, 397, 416
408, 367, 405, 426
417, 426, 449, 462
492, 460, 422, 454
405, 394, 373, 384
393, 388, 402, 416
387, 411, 411, 399
391, 416, 431, 418
415, 413, 383, 382
360, 370, 364, 357
348, 329, 319, 324
353, 320, 337, 344
362, 358, 365, 369
380, 382, 372, 361
345, 341, 353, 379
369, 374, 379, 386
376, 371, 375, 363
372, 382, 363, 370
352, 383, 345, 354
378, 413, 405, 356
429, 435, 431, 426
401, 398, 360, 372
365, 354, 373, 398
356, 329, 330, 346
327, 322, 337, 349
340, 355, 353, 364
337, 360, 362, 351
333, 339, 365, 363
376, 374, 367, 361
341, 370, 374, 366
340, 328, 356, 367
338, 329, 334, 354
358, 346, 363, 381
394, 427, 418, 404
406, 392, 384, 403
492, 524, 505, 550
410, 420, 428, 425
393, 387, 407, 387
403, 419, 404, 399
477, 480, 518, 505
403, 405, 386, 400
399, 403, 388, 367
466, 481, 485, 483
565, 544, 515, 510
402, 410, 425, 410
397, 385, 376, 423
392, 412, 428, 428
481, 479, 462, 454
383, 403, 415, 432
374, 397, 408, 409
372, 401, 417, 418
440, 456, 451, 451
482, 473, 497, 509
713, 728, 752, 745
654, 676, 649, 611
556, 560, 581, 561
566, 574, 588, 578
689, 674, 665, 705
650, 621, 638, 635
635, 645, 647, 679
631, 652, 646, 644
605, 568, 578, 591
499, 461, 458, 464
455, 455, 474, 459
433, 435, 464, 457
448, 416, 418, 414
433, 415, 433, 436
431, 415, 425, 411
469, 487, 518, 484
503, 503, 524, 498
469, 481, 472, 506
462, 486, 504, 499
523, 527, 541, 510
495, 519, 510, 503
459, 433, 457, 460
461, 456, 470, 406
392, 398, 389, 389
352, 360, 384, 373
400, 418, 403, 386
396, 404, 419, 421
393, 405, 415, 409
406, 408, 395, 386
426, 392, 364, 377
408, 396, 399, 407
410, 406, 404, 398
353, 373, 375, 411
388, 388, 371, 359
346, 335, 371, 371
381, 356, 351, 325
348, 354, 358, 353
350, 335, 334, 358
365, 361, 348, 361
391, 372, 368, 390
364, 361, 374, 383
361, 375, 367, 365
338, 353, 366, 380
365, 378, 393, 398
400, 370, 373, 376
398, 397, 380, 366
361, 381, 381, 369
370, 364, 354, 371
386, 370, 359, 364
364, 346, 371, 374
362, 324, 350, 356
360, 362, 374, 378
331, 323, 366, 340
345, 345, 337, 340
355
*END

*EOF