Folder: latex/化学生命工学実験4/無機物理化学実験/3/data/実験4配布ファイル/PXRD

File: 20231122_sifsix_powder_1-2_2θ_θ.asc
*TYPE		=  Raw
*CLASS		=  ASCII CLASS
*SAMPLE		=
*COMMENT	=
*FNAME		=  20231122_sifsix_powder_1-2_2θ_θ.asc
*DATE		=  24-Nov-23 10:37

*GROUP_COUNT	=  1
*GONIO		=  MiniFlex 300/600 +, 150
*ATTACHMENT	=  6サンプルチェンジャ
*ASC		=  0, 0, 0.000000, 0.000000
*FILTER		=  K-beta(x1)
*C_MONOCHRO	=  None, 0.000000
*SLIT_NAME	=  0, IHS
*SLIT_NAME	=  1, DS
*SLIT_NAME	=  2, SS
*SLIT_NAME	=  3, RS
*COUNTER	=  D/teX Ultra, 0
*POS_FORMAT	=  0
*SCAN_AXIS	=  2theta/theta
*MEAS_MODE	=  Continuous Scanning
*TARGET		=  29
*XRAY_CHAR	=  K-ALPHA
*WAVE_LENGTH1	=  1.54059
*WAVE_LENGTH2	=  1.54441
*THICKNESS	=  0, 0.000000
*MU		=  0, 0.000000
*SCAN_MODE	=  2theta/theta
*SPEED_DIM	=  sec./step
*XUNIT		=  deg.
*YUNIT		=  cps
*SCALE_MODE	=  1
*REP_COUNT	=  0
*SE_COUNT	=  0
*STD_MATERIAL	=  Unknown, Unknown, 0.000000, 0.000000, 0.000000, 0.000000, 0.000000, 0.000000
*LATT_CONS	=  0, Unknown, Unknown, 0.000000, 0.000000, 0.000000, 0.000000, 0.000000, 0.000000
*SEC_COUNT	=  1
*TSPEC_SIZE	=  0
*EXTRA_SIZE	=  0
*MEMO		=

*BEGIN
*GROUP		=  0
*START		=  3
*STOP		=  55
*STEP		=  0.01
*OFFSET		=  0.000000
*SPEED		=  0.06
*SLIT_SPEC	=  0, 10.0mm, 10, 0.000000
*SLIT_SPEC	=  1, 1.250deg, 1.25, 0.000000
*SLIT_SPEC	=  2, 13.0mm(Open), 13, 0.000000
*SLIT_SPEC	=  3, 13.0mm, 13, 0.000000
*KV		=  40
*MA		=  15
*LOW		=  0.000000
*HIGH		=  0.000000
*CTEMPER	=  0, 0.000000
*CTEMPER	=  1, 0.000000
*CTEMPER	=  2, 0.000000
*PAREX		=  0, 0.000000
*PAREX		=  1, 0.000000
*PAREX		=  2, 0.000000
*PAREX		=  3, 0.000000
*PAREX		=  4, 0.000000
*PAREX		=  5, 0.000000
*PAREX		=  6, 0.000000
*PAREX		=  7, 0.000000
*PAREX		=  8, 0.000000
*PAREX		=  9, 0.000000
*PAREX		=  10, 0.000000
*PAREX		=  11, 0.000000
*PAREX		=  12, 0.000000
*PAREX		=  13, 0.000000
*PAREX		=  14, 0.000000
*PAREX		=  15, 0.000000
*FULL_SCALE	=  39500
*INDEX		=  0, 0, 0
*COUNT		=  5201
166, 161, 169, 187
147, 157, 144, 157
146, 134, 131, 139
122, 123, 137, 136
115, 115, 124, 112
102, 113, 134, 127
115, 129, 100, 115
129, 121, 121, 102
102, 106, 106, 111
119, 113, 108, 105
129, 131, 131, 140
141, 140, 137, 141
99, 109, 100, 94
96, 92, 100, 95
90, 106, 94, 88
90, 98, 91, 85
89, 95, 112, 107
96, 101, 87, 82
98, 97, 101, 105
91, 88, 88, 89
101, 105, 92, 98
111, 103, 105, 103
100, 102, 107, 109
112, 117, 117, 117
199, 226, 229, 247
356, 339, 315, 264
154, 170, 161, 164
140, 145, 154, 139
139, 137, 148, 133
124, 156, 123, 127
135, 151, 143, 131
142, 139, 133, 148
186, 197, 200, 214
175, 175, 183, 164
161, 164, 160, 164
147, 151, 162, 149
175, 165, 171, 171
182, 173, 192, 184
231, 214, 217, 233
414, 428, 462, 493
760, 738, 689, 663
527, 538, 526, 521
352, 340, 308, 323
252, 255, 254, 266
213, 224, 215, 231
210, 207, 191, 196
211, 198, 195, 212
180, 192, 177, 189
190, 210, 205, 198
228, 230, 216, 212
252, 266, 244, 234
226, 241, 257, 227
295, 303, 293, 341
436, 434, 436, 406
255, 266, 232, 236
206, 197, 200, 217
215, 219, 208, 207
224, 212, 215, 210
230, 242, 241, 234
238, 259, 255, 214
212, 236, 240, 233
246, 246, 214, 219
247, 231, 223, 228
258, 275, 280, 272
508, 545, 580, 616
1019, 950, 905, 813
398, 426, 385, 358
325, 312, 263, 267
283, 281, 297, 281
268, 273, 300, 291
301, 278, 264, 286
283, 264, 269, 290
284, 269, 267, 272
301, 292, 293, 295
420, 421, 416, 410
345, 322, 323, 313
282, 302, 292, 288
305, 331, 303, 312
441, 453, 458, 466
456, 440, 443, 421
388, 413, 400, 409
502, 517, 541, 599
1947, 1874, 1975, 1886
838, 794, 721, 682
310, 357, 353, 335
292, 309, 309, 338
302, 314, 318, 312
363, 385, 376, 388
504, 516, 516, 490
520, 494, 489, 474
458, 478, 480, 489
386, 389, 392, 371
334, 327, 324, 343
292, 327, 316, 310
345, 368, 361, 344
320, 312, 328, 337
356, 335, 355, 371
348, 359, 354, 358
625, 644, 698, 685
506, 514, 520, 517
336, 326, 320, 339
301, 309, 312, 313
356, 371, 352, 358
338, 330, 321, 341
297, 324, 340, 339
531, 542, 557, 527
444, 436, 457, 492
971, 1017, 977, 953
495, 446, 447, 456
338, 334, 328, 328
318, 313, 323, 341
439, 477, 479, 471
420, 407, 404, 381
325, 303, 311, 291
287, 280, 279, 278
293, 312, 297, 303
476, 480, 488, 476
486, 508, 504, 456
453, 441, 423, 433
310, 299, 280, 276
259, 250, 290, 278
258, 258, 251, 268
314, 289, 289, 297
302, 296, 294, 300
274, 281, 282, 274
244, 250, 262, 263
235, 219, 251, 242
282, 262, 270, 267
290, 298, 282, 279
244, 248, 276, 272
231, 222, 204, 227
251, 249, 246, 232
270, 253, 246, 271
273, 267, 289, 272
231, 236, 206, 230
224, 238, 238, 246
256, 235, 252, 251
390, 393, 426, 410
308, 297, 297, 286
205, 221, 226, 236
225, 218, 230, 224
222, 208, 219, 215
239, 232, 233, 219
224, 232, 228, 230
318, 314, 324, 341
273, 270, 254, 250
259, 245, 256, 257
216, 238, 229, 228
211, 214, 240, 236
290, 293, 326, 304
297, 289, 280, 291
295, 297, 300, 287
254, 258, 235, 226
252, 256, 240, 202
285, 305, 284, 313
309, 318, 312, 300
257, 252, 252, 253
262, 263, 265, 271
221, 221, 215, 229
201, 213, 212, 215
214, 227, 231, 224
231, 259, 260, 256
249, 238, 242, 236
213, 201, 227, 232
206, 214, 200, 210
253, 266, 260, 260
335, 347, 357, 363
262, 272, 252, 251
244, 244, 235, 235
227, 220, 209, 229
195, 214, 212, 207
211, 234, 209, 224
190, 200, 209, 226
230, 228, 209, 211
249, 243, 242, 238
316, 305, 326, 323
250, 242, 240, 244
184, 186, 201, 202
215, 195, 200, 205
181, 194, 199, 206
210, 222, 219, 224
191, 207, 200, 194
211, 218, 211, 228
243, 212, 216, 225
195, 202, 217, 232
203, 203, 199, 219
260, 232, 237, 230
225, 254, 273, 264
345, 356, 323, 325
295, 255, 258, 254
260, 250, 272, 250
345, 336, 335, 316
262, 268, 283, 266
241, 246, 238, 234
235, 228, 210, 229
233, 232, 227, 253
235, 223, 237, 249
283, 281, 261, 260
231, 227, 234, 245
244, 237, 245, 249
275, 259, 249, 238
237, 240, 228, 252
258, 267, 267, 266
235, 240, 217, 213
216, 217, 228, 228
223, 242, 249, 226
248, 254, 221, 233
281, 272, 283, 265
247, 247, 245, 243
220, 224, 213, 206
198, 191, 186, 205
206, 202, 204, 205
206, 209, 233, 230
197, 209, 215, 217
210, 197, 209, 230
203, 220, 222, 211
230, 249, 257, 244
265, 287, 289, 283
286, 288, 265, 276
251, 231, 237, 233
216, 235, 215, 229
228, 249, 231, 245
228, 240, 230, 238
284, 288, 298, 292
279, 283, 294, 282
224, 260, 260, 225
220, 229, 212, 207
193, 194, 190, 215
223, 217, 214, 194
209, 225, 205, 210
206, 202, 201, 219
207, 204, 197, 193
208, 202, 225, 217
207, 203, 201, 211
202, 189, 197, 201
237, 214, 209, 206
230, 214, 215, 215
208, 193, 188, 211
196, 207, 237, 236
210, 226, 245, 253
199, 209, 204, 206
200, 192, 207, 192
199, 204, 198, 178
194, 219, 204, 208
220, 220, 219, 225
218, 242, 235, 218
243, 249, 233, 218
246, 231, 250, 223
237, 219, 202, 216
199, 193, 207, 175
192, 195, 195, 208
201, 199, 197, 194
205, 218, 200, 206
208, 218, 232, 211
215, 201, 200, 203
222, 204, 188, 198
232, 234, 241, 222
235, 225, 210, 222
216, 208, 200, 214
197, 208, 188, 202
173
*END

*EOF

File: 20231122_sifsix_powder_2-2_2θ_θ.asc
*TYPE		=  Raw
*CLASS		=  ASCII CLASS
*SAMPLE		=
*COMMENT	=
*FNAME		=  20231122_sifsix_powder_2-2_2θ_θ.asc
*DATE		=  24-Nov-23 10:43

*GROUP_COUNT	=  1
*GONIO		=  MiniFlex 300/600 +, 150
*ATTACHMENT	=  6サンプルチェンジャ
*ASC		=  0, 0, 0.000000, 0.000000
*FILTER		=  K-beta(x1)
*C_MONOCHRO	=  None, 0.000000
*SLIT_NAME	=  0, IHS
*SLIT_NAME	=  1, DS
*SLIT_NAME	=  2, SS
*SLIT_NAME	=  3, RS
*COUNTER	=  D/teX Ultra, 0
*POS_FORMAT	=  0
*SCAN_AXIS	=  2theta/theta
*MEAS_MODE	=  Continuous Scanning
*TARGET		=  29
*XRAY_CHAR	=  K-ALPHA
*WAVE_LENGTH1	=  1.54059
*WAVE_LENGTH2	=  1.54441
*THICKNESS	=  0, 0.000000
*MU		=  0, 0.000000
*SCAN_MODE	=  2theta/theta
*SPEED_DIM	=  sec./step
*XUNIT		=  deg.
*YUNIT		=  cps
*SCALE_MODE	=  1
*REP_COUNT	=  0
*SE_COUNT	=  0
*STD_MATERIAL	=  Unknown, Unknown, 0.000000, 0.000000, 0.000000, 0.000000, 0.000000, 0.000000
*LATT_CONS	=  0, Unknown, Unknown, 0.000000, 0.000000, 0.000000, 0.000000, 0.000000, 0.000000
*SEC_COUNT	=  1
*TSPEC_SIZE	=  0
*EXTRA_SIZE	=  0
*MEMO		=

*BEGIN
*GROUP		=  0
*START		=  3
*STOP		=  55
*STEP		=  0.01
*OFFSET		=  0.000000
*SPEED		=  0.06
*SLIT_SPEC	=  0, 10.0mm, 10, 0.000000
*SLIT_SPEC	=  1, 1.250deg, 1.25, 0.000000
*SLIT_SPEC	=  2, 13.0mm(Open), 13, 0.000000
*SLIT_SPEC	=  3, 13.0mm, 13, 0.000000
*KV		=  40
*MA		=  15
*LOW		=  0.000000
*HIGH		=  0.000000
*CTEMPER	=  0, 0.000000
*CTEMPER	=  1, 0.000000
*CTEMPER	=  2, 0.000000
*PAREX		=  0, 0.000000
*PAREX		=  1, 0.000000
*PAREX		=  2, 0.000000
*PAREX		=  3, 0.000000
*PAREX		=  4, 0.000000
*PAREX		=  5, 0.000000
*PAREX		=  6, 0.000000
*PAREX		=  7, 0.000000
*PAREX		=  8, 0.000000
*PAREX		=  9, 0.000000
*PAREX		=  10, 0.000000
*PAREX		=  11, 0.000000
*PAREX		=  12, 0.000000
*PAREX		=  13, 0.000000
*PAREX		=  14, 0.000000
*PAREX		=  15, 0.000000
*FULL_SCALE	=  43440
*INDEX		=  0, 0, 0
*COUNT		=  5201
99, 106, 113, 121
110, 111, 105, 101
97, 86, 96, 89
75, 83, 93, 85
85, 99, 101, 80
79, 81, 73, 80
77, 69, 67, 78
77, 69, 71, 87
67, 58, 77, 81
68, 60, 75, 73
80, 82, 79, 93
90, 94, 89, 84
81, 66, 78, 66
66, 78, 70, 63
69, 68, 78, 85
71, 71, 75, 70
71, 79, 71, 62
86, 79, 80, 72
89, 90, 77, 75
78, 74, 85, 98
86, 93, 94, 95
88, 87, 87, 89
100, 94, 88, 83
91, 93, 108, 102
163, 175, 183, 196
174, 166, 164, 151
141, 138, 131, 127
106, 94, 108, 115
111, 123, 117, 101
112, 97, 121, 106
113, 115, 122, 121
130, 122, 114, 132
138, 142, 156, 160
155, 131, 130, 129
124, 129, 129, 119
146, 126, 115, 134
127, 127, 138, 140
152, 147, 149, 157
167, 174, 180, 189
284, 325, 355, 372
652, 587, 507, 446
378, 381, 398, 411
217, 211, 204, 212
204, 189, 176, 169
203, 186, 197, 195
157, 162, 166, 168
164, 181, 166, 160
154, 156, 163, 168
151, 133, 176, 168
175, 163, 173, 172
215, 212, 189, 207
185, 189, 206, 213
230, 252, 243, 263
403, 389, 361, 336
181, 184, 174, 200
183, 177, 179, 175
191, 186, 171, 164
187, 173, 178, 196
196, 212, 191, 181
198, 198, 191, 192
174, 170, 176, 192
199, 175, 174, 184
209, 214, 200, 203
223, 242, 241, 237
383, 427, 439, 479
787, 686, 633, 602
290, 267, 258, 265
238, 262, 263, 269
243, 247, 255, 277
239, 239, 225, 211
230, 240, 254, 252
229, 213, 210, 224
241, 246, 233, 239
250, 248, 244, 249
334, 341, 328, 345
273, 272, 275, 250
249, 253, 224, 243
253, 249, 266, 267
411, 399, 371, 404
414, 369, 359, 323
313, 333, 351, 351
436, 464, 481, 524
2103, 2172, 2137, 2126
440, 413, 401, 384
296, 278, 281, 264
250, 274, 277, 281
274, 276, 266, 255
319, 318, 322, 327
425, 430, 438, 449
430, 427, 404, 396
450, 426, 449, 472
342, 312, 319, 320
276, 294, 290, 288
295, 268, 283, 284
286, 288, 306, 301
287, 305, 314, 308
325, 309, 314, 321
333, 330, 348, 338
611, 633, 651, 683
513, 496, 473, 442
290, 302, 276, 283
282, 274, 273, 273
325, 345, 316, 342
314, 321, 301, 296
303, 309, 277, 283
483, 478, 494, 513
407, 414, 425, 430
1022, 1102, 1112, 1064
425, 377, 354, 362
311, 301, 309, 316
302, 290, 291, 317
476, 480, 474, 496
381, 381, 344, 352
317, 282, 287, 305
274, 292, 278, 264
328, 332, 293, 305
423, 451, 472, 473
454, 440, 436, 454
481, 467, 426, 423
306, 288, 293, 295
258, 258, 267, 265
292, 265, 265, 268
307, 296, 295, 299
314, 306, 304, 325
305, 316, 304, 291
258, 253, 241, 236
256, 245, 242, 241
279, 281, 292, 299
343, 326, 317, 305
239, 231, 270, 278
257, 246, 249, 258
256, 256, 276, 259
274, 291, 276, 273
307, 314, 309, 296
250, 251, 262, 248
240, 250, 238, 273
280, 275, 280, 280
445, 475, 502, 498
346, 326, 314, 318
258, 244, 246, 252
244, 274, 259, 235
258, 255, 262, 266
264, 270, 254, 266
247, 257, 264, 271
351, 358, 370, 423
293, 286, 294, 290
278, 308, 298, 283
277, 270, 257, 253
250, 277, 280, 262
337, 364, 348, 367
392, 366, 373, 370
334, 328, 355, 337
249, 273, 280, 268
298, 273, 290, 289
318, 338, 348, 352
405, 377, 361, 353
293, 282, 305, 318
339, 323, 324, 328
273, 259, 260, 285
273, 270, 272, 273
261, 258, 275, 258
318, 318, 318, 319
307, 313, 299, 310
260, 246, 255, 251
265, 278, 276, 276
296, 307, 314, 339
422, 444, 452, 445
343, 351, 351, 349
302, 309, 312, 299
292, 299, 264, 274
253, 258, 261, 241
252, 262, 253, 270
252, 288, 270, 264
263, 266, 274, 272
306, 341, 327, 318
433, 439, 452, 452
329, 305, 314, 323
294, 279, 273, 292
248, 262, 277, 264
262, 265, 262, 261
272, 286, 288, 270
268, 273, 265, 251
286, 295, 299, 290
283, 292, 283, 291
260, 277, 285, 276
263, 267, 282, 272
269, 284, 299, 296
365, 364, 370, 374
447, 473, 487, 459
401, 365, 363, 342
320, 333, 357, 327
453, 478, 487, 493
335, 338, 371, 379
325, 336, 342, 325
300, 281, 280, 291
325, 314, 337, 336
353, 344, 351, 330
371, 384, 369, 356
313, 316, 328, 313
339, 357, 355, 349
356, 371, 334, 344
334, 346, 360, 352
348, 350, 368, 348
298, 300, 302, 323
294, 315, 308, 319
315, 298, 324, 317
336, 340, 341, 348
381, 388, 388, 398
313, 314, 328, 325
311, 297, 286, 299
298, 288, 288, 283
273, 287, 278, 311
309, 325, 308, 298
280, 284, 279, 265
306, 282, 279, 285
315, 308, 298, 307
353, 336, 344, 340
389, 376, 401, 399
423, 414, 388, 404
346, 328, 332, 331
320, 302, 310, 320
330, 310, 332, 314
340, 324, 328, 326
424, 455, 427, 407
408, 426, 436, 442
330, 345, 340, 314
321, 276, 286, 310
287, 278, 271, 279
253, 270, 306, 264
274, 277, 291, 272
303, 290, 282, 272
289, 301, 296, 295
279, 273, 283, 287
298, 290, 293, 296
271, 303, 292, 291
310, 301, 296, 304
309, 332, 331, 325
283, 290, 292, 289
324, 297, 292, 299
324, 294, 294, 316
290, 298, 283, 280
287, 280, 270, 292
300, 292, 262, 270
279, 276, 272, 282
300, 333, 331, 300
347, 350, 316, 333
368, 356, 344, 355
362, 363, 350, 339
318, 312, 314, 278
283, 291, 291, 309
287, 304, 304, 291
293, 285, 263, 276
270, 293, 297, 290
298, 296, 303, 303
283, 289, 307, 318
275, 282, 286, 273
283, 298, 314, 329
310, 316, 317, 322
319, 326, 309, 314
285, 292, 282, 304
282
*END

*EOF

File: 20231122_sifsix_powder_2-hara_2θ_θ.asc
*TYPE		=  Raw
*CLASS		=  ASCII CLASS
*SAMPLE		=
*COMMENT	=
*FNAME		=  20231122_sifsix_powder_2-hara_2θ_θ.asc
*DATE		=  22-Nov-23 15:41

*GROUP_COUNT	=  1
*GONIO		=  MiniFlex 300/600 +, 150
*ATTACHMENT	=  6サンプルチェンジャ
*ASC		=  0, 0, 0.000000, 0.000000
*FILTER		=  K-beta(x1)
*C_MONOCHRO	=  None, 0.000000
*SLIT_NAME	=  0, IHS
*SLIT_NAME	=  1, DS
*SLIT_NAME	=  2, SS
*SLIT_NAME	=  3, RS
*COUNTER	=  D/teX Ultra, 0
*POS_FORMAT	=  0
*SCAN_AXIS	=  2theta/theta
*MEAS_MODE	=  Continuous Scanning
*TARGET		=  29
*XRAY_CHAR	=  K-ALPHA
*WAVE_LENGTH1	=  1.54059
*WAVE_LENGTH2	=  1.54441
*THICKNESS	=  0, 0.000000
*MU		=  0, 0.000000
*SCAN_MODE	=  2theta/theta
*SPEED_DIM	=  sec./step
*XUNIT		=  deg.
*YUNIT		=  cps
*SCALE_MODE	=  1
*REP_COUNT	=  0
*SE_COUNT	=  0
*STD_MATERIAL	=  Unknown, Unknown, 0.000000, 0.000000, 0.000000, 0.000000, 0.000000, 0.000000
*LATT_CONS	=  0, Unknown, Unknown, 0.000000, 0.000000, 0.000000, 0.000000, 0.000000, 0.000000
*SEC_COUNT	=  1
*TSPEC_SIZE	=  0
*EXTRA_SIZE	=  0
*MEMO		=

*BEGIN
*GROUP		=  0
*START		=  3
*STOP		=  55
*STEP		=  0.01
*OFFSET		=  0.000000
*SPEED		=  0.06
*SLIT_SPEC	=  0, 10.0mm, 10, 0.000000
*SLIT_SPEC	=  1, 1.250deg, 1.25, 0.000000
*SLIT_SPEC	=  2, 13.0mm(Open), 13, 0.000000
*SLIT_SPEC	=  3, 13.0mm, 13, 0.000000
*KV		=  40
*MA		=  15
*LOW		=  0.000000
*HIGH		=  0.000000
*CTEMPER	=  0, 0.000000
*CTEMPER	=  1, 0.000000
*CTEMPER	=  2, 0.000000
*PAREX		=  0, 0.000000
*PAREX		=  1, 0.000000
*PAREX		=  2, 0.000000
*PAREX		=  3, 0.000000
*PAREX		=  4, 0.000000
*PAREX		=  5, 0.000000
*PAREX		=  6, 0.000000
*PAREX		=  7, 0.000000
*PAREX		=  8, 0.000000
*PAREX		=  9, 0.000000
*PAREX		=  10, 0.000000
*PAREX		=  11, 0.000000
*PAREX		=  12, 0.000000
*PAREX		=  13, 0.000000
*PAREX		=  14, 0.000000
*PAREX		=  15, 0.000000
*FULL_SCALE	=  12520
*INDEX		=  0, 0, 0
*COUNT		=  5201
52, 55, 50, 56
53, 55, 50, 52
44, 41, 38, 40
36, 36, 36, 34
36, 31, 38, 34
26, 32, 32, 34
37, 33, 31, 33
28, 26, 27, 24
26, 28, 26, 22
25, 25, 27, 24
20, 30, 29, 35
41, 35, 32, 30
33, 32, 37, 35
18, 29, 21, 24
25, 19, 24, 29
24, 28, 34, 30
23, 25, 21, 26
23, 24, 24, 25
24, 23, 17, 20
26, 29, 28, 30
26, 28, 19, 20
30, 23, 26, 24
27, 23, 32, 29
36, 33, 31, 33
94, 111, 127, 151
108, 87, 76, 74
37, 37, 36, 37
30, 25, 28, 30
25, 34, 31, 24
36, 28, 27, 32
28, 29, 36, 36
33, 28, 34, 40
39, 38, 39, 43
35, 34, 42, 39
30, 37, 33, 26
31, 29, 34, 38
40, 36, 30, 34
31, 39, 44, 40
43, 55, 66, 49
61, 56, 63, 58
84, 92, 88, 83
285, 290, 290, 293
86, 84, 90, 77
47, 44, 52, 51
54, 45, 45, 52
48, 42, 43, 42
44, 47, 48, 52
40, 40, 45, 35
35, 46, 43, 30
40, 42, 47, 46
51, 46, 53, 56
66, 64, 61, 61
103, 113, 110, 113
66, 70, 80, 65
50, 53, 48, 45
47, 40, 38, 39
44, 44, 48, 53
56, 51, 51, 59
53, 51, 39, 42
53, 59, 51, 51
44, 56, 57, 55
59, 50, 57, 53
76, 71, 64, 70
82, 99, 100, 87
273, 333, 343, 352
456, 401, 385, 318
114, 101, 93, 82
86, 97, 84, 75
70, 72, 76, 72
73, 78, 87, 80
72, 66, 74, 69
78, 73, 72, 73
66, 62, 64, 74
60, 63, 68, 67
121, 110, 109, 112
84, 82, 78, 74
74, 71, 77, 75
76, 56, 66, 68
66, 67, 70, 80
82, 78, 71, 76
85, 74, 70, 73
124, 101, 101, 113
106, 93, 94, 93
76, 92, 81, 77
74, 83, 81, 71
85, 81, 77, 72
86, 88, 85, 83
95, 81, 83, 89
95, 103, 103, 106
129, 125, 131, 129
119, 135, 159, 148
112, 107, 110, 116
134, 149, 154, 145
119, 123, 134, 137
203, 200, 200, 217
195, 196, 186, 194
114, 113, 115, 114
111, 121, 120, 135
146, 148, 163, 152
134, 142, 170, 170
132, 126, 121, 127
143, 131, 142, 150
168, 167, 178, 156
115, 106, 104, 99
122, 133, 136, 126
248, 239, 235, 244
123, 101, 110, 108
120, 115, 121, 114
112, 104, 108, 103
106, 115, 111, 99
109, 118, 108, 107
145, 126, 138, 130
143, 129, 124, 131
104, 118, 112, 101
127, 107, 102, 102
95, 103, 114, 110
130, 139, 164, 173
221, 210, 213, 196
125, 139, 129, 120
123, 123, 135, 131
133, 134, 123, 114
115, 121, 129, 133
120, 120, 121, 117
117, 123, 122, 106
106, 102, 96, 102
104, 103, 95, 92
101, 110, 115, 98
110, 106, 104, 111
97, 81, 82, 100
97, 95, 96, 102
100, 112, 106, 106
89, 95, 83, 96
98, 103, 106, 98
102, 100, 94, 91
106, 96, 91, 93
102, 108, 101, 92
105, 103, 103, 90
91, 105, 83, 98
100, 101, 99, 114
87, 94, 98, 97
100, 99, 91, 92
99, 105, 106, 95
98, 100, 91, 85
92, 94, 108, 100
114, 109, 93, 104
87, 89, 87, 89
115, 117, 131, 117
95, 118, 117, 100
106, 95, 103, 108
115, 114, 112, 112
107, 102, 111, 114
97, 106, 116, 114
120, 105, 91, 104
108, 107, 98, 83
116, 111, 98, 100
135, 129, 148, 121
112, 110, 119, 104
99, 104, 120, 104
99, 94, 100, 106
112, 110, 106, 108
118, 108, 100, 99
104, 102, 111, 114
97, 115, 97, 86
110, 100, 100, 108
98, 106, 94, 91
108, 112, 110, 104
107, 105, 119, 111
107, 93, 109, 112
108, 102, 106, 105
110, 111, 100, 90
109, 102, 105, 121
111, 105, 110, 106
91, 93, 104, 109
108, 96, 107, 102
105, 106, 112, 125
107, 108, 115, 115
103, 109, 108, 109
115, 99, 94, 94
118, 122, 114, 105
98, 109, 110, 109
97, 91, 100, 110
102, 102, 111, 105
102, 93, 106, 112
112, 104, 106, 109
105, 109, 110, 112
106, 85, 95, 97
115, 113, 99, 109
115, 119, 108, 111
138, 128, 143, 142
118, 112, 119, 115
117, 106, 119, 133
113, 110, 105, 102
131, 117, 114, 127
128, 127, 104, 106
97, 105, 105, 104
109, 118, 118, 129
124, 129, 131, 127
127, 117, 120, 126
122, 128, 126, 132
135, 117, 124, 133
120, 124, 120, 122
125, 121, 112, 112
109, 100, 107, 116
109, 115, 116, 99
121, 118, 123, 122
125, 129, 121, 107
125, 121, 111, 127
115, 104, 121, 116
112, 108, 111, 107
107, 110, 105, 115
108, 120, 138, 113
115, 118, 131, 118
115, 120, 123, 129
125, 122, 120, 129
115, 111, 110, 131
103, 109, 120, 121
103, 116, 122, 124
108, 122, 114, 110
109, 130, 121, 112
126, 107, 120, 127
111, 109, 123, 127
126, 123, 123, 115
128, 137, 132, 124
118, 115, 112, 119
124, 120, 126, 112
118, 143, 125, 117
111, 115, 100, 110
116, 123, 109, 107
121, 130, 130, 117
111, 106, 110, 110
113, 104, 112, 122
121, 113, 119, 114
120, 118, 117, 126
114, 128, 118, 110
108, 105, 117, 104
111, 115, 109, 114
127, 125, 124, 129
116, 102, 106, 109
119, 126, 127, 116
111, 98, 98, 113
103, 105, 117, 114
111, 104, 109, 110
108, 110, 107, 93
106, 116, 102, 107
106, 110, 120, 112
117, 118, 101, 82
107, 116, 107, 103
108, 115, 112, 119
115, 118, 113, 116
103, 100, 110, 114
119, 117, 112, 126
115, 115, 108, 113
120, 118, 118, 113
123, 110, 116, 120
120, 120, 114, 111
114, 120, 134, 114
109, 107, 116, 118
119, 122, 106, 116
97, 106, 116, 105
112, 120, 123, 124
107
*END

*EOF