Folder: latex/化学生命工学実験4/無機物理化学実験/2/data

Note: 化学生命工学実験4/無機物理化学実験/2/data/3_A.txt
0	1.49666e-10
1.17662e-08	-6.01855e-11
2.35324e-08	-1.34436e-10
3.52986e-08	-1.85726e-10
4.70648e-08	-2.27195e-10
5.88309e-08	-1.10799e-10
7.05971e-08	-2.57437e-11
8.23633e-08	2.08578e-11
9.41295e-08	-3.05205e-11
1.05896e-07	-9.63105e-11
1.17662e-07	-7.01348e-11
1.29428e-07	-1.10357e-10
1.41194e-07	-1.19757e-10
1.5296e-07	-1.54574e-10
1.64727e-07	-1.54024e-10
1.76493e-07	-7.74007e-11
1.88259e-07	2.09873e-10
2.00025e-07	1.02829e-09
2.11791e-07	2.68142e-09
2.23558e-07	3.72541e-09
2.35324e-07	3.5672e-09
2.4709e-07	3.71892e-09
2.58856e-07	3.79506e-09
2.70622e-07	3.77032e-09
2.82389e-07	3.62933e-09
2.94155e-07	3.58156e-09
3.05921e-07	3.32993e-09
3.17687e-07	3.26559e-09
3.29453e-07	3.23647e-09
3.41219e-07	3.29092e-09
3.52986e-07	3.02766e-09
3.64752e-07	3.21404e-09
3.76518e-07	3.33041e-09
3.88284e-07	3.32527e-09
4.0005e-07	3.12873e-09
4.11817e-07	2.85189e-09
4.23583e-07	2.89561e-09
4.35349e-07	3.03112e-09
4.47115e-07	2.88901e-09
4.58881e-07	2.81167e-09
4.70648e-07	3.04511e-09
4.82414e-07	3.07069e-09
4.9418e-07	2.92223e-09
5.05946e-07	2.93227e-09
5.17712e-07	3.12149e-09
5.29478e-07	3.09185e-09
5.41245e-07	2.90193e-09
5.53011e-07	2.4221e-09
5.64777e-07	1.63675e-09
5.76543e-07	2.06022e-10
5.88309e-07	8.67121e-11
6.00076e-07	1.03044e-10
6.11842e-07	4.63229e-11
6.23608e-07	-8.52814e-12
6.35374e-07	-7.19984e-11
6.4714e-07	-6.29658e-12
6.58907e-07	8.0045e-11
6.70673e-07	5.82112e-11
6.82439e-07	1.00089e-10
6.94205e-07	1.27814e-10
7.05971e-07	1.77352e-10
7.17738e-07	2.33285e-10
7.29504e-07	2.74223e-10
7.4127e-07	2.6026e-10

File: A_pre_2θ_θ.asc
*TYPE		=  Raw
*CLASS		=  ASCII CLASS
*SAMPLE		=
*COMMENT	=
*FNAME		=  A_pre_2θ_θ.asc
*DATE		=  06-Dec-23 14:20

*GROUP_COUNT	=  1
*GONIO		=  SmartLab(In-plane), 0.000000
*ATTACHMENT	=  χφZクレードル
*ASC		=  0, 0, 0.000000, 0.000000
*I_MONOCHRO	=  Soller_slit_5.0deg, 0.000000
*FILTER		=  None
*C_MONOCHRO	=  Bent, 0.000000
*SLIT_NAME	=  0, 入射スリット
*SLIT_NAME	=  1, 受光スリット1
*SLIT_NAME	=  2, 受光スリット2
*COUNTER	=  SC-70, 0
*POS_FORMAT	=  0
*SCAN_AXIS	=  2theta/theta
*MEAS_MODE	=  Continuous Scanning
*TARGET		=  29
*XRAY_CHAR	=  K-ALPHA
*WAVE_LENGTH1	=  1.54059
*WAVE_LENGTH2	=  1.54441
*THICKNESS	=  0, 0.000000
*MU		=  0, 0.000000
*SCAN_MODE	=  2theta/theta
*SPEED_DIM	=  sec./step
*XUNIT		=  deg.
*YUNIT		=  counts
*SCALE_MODE	=  1
*REP_COUNT	=  0
*SE_COUNT	=  0
*STD_MATERIAL	=  Unknown, Unknown, 0.000000, 0.000000, 0.000000, 0.000000, 0.000000, 0.000000
*LATT_CONS	=  0, Unknown, Unknown, 0.000000, 0.000000, 0.000000, 0.000000, 0.000000, 0.000000
*SEC_COUNT	=  1
*TSPEC_SIZE	=  0
*EXTRA_SIZE	=  0
*MEMO		=

*BEGIN
*GROUP		=  0
*START		=  2
*STOP		=  60
*STEP		=  0.01
*OFFSET		=  0.000000
*SPEED		=  0.0666667
*SLIT_SPEC	=  0, 1/2deg, 1, 0.000000
*SLIT_SPEC	=  1, 1/2deg, 1, 0.000000
*SLIT_SPEC	=  2, 0.300mm, 0.3, 0.000000
*KV		=  45
*MA		=  200
*LOW		=  0.000000
*HIGH		=  0.000000
*CTEMPER	=  0, 0.000000
*CTEMPER	=  1, 0.000000
*CTEMPER	=  2, 0.000000
*PAREX		=  0, 0.000000
*PAREX		=  1, 0.000000
*PAREX		=  2, 0.000000
*PAREX		=  3, 0.000000
*PAREX		=  4, 0.000000
*PAREX		=  5, 0.000000
*PAREX		=  6, 0.000000
*PAREX		=  7, 0.000000
*PAREX		=  8, 0.000000
*PAREX		=  9, 0.000000
*PAREX		=  10, 0.000000
*PAREX		=  11, 0.000000
*PAREX		=  12, 0.000000
*PAREX		=  13, 0.000000
*PAREX		=  14, 0.000000
*PAREX		=  15, 0.000000
*FULL_SCALE	=  17352
*INDEX		=  0, 0, 0
*COUNT		=  5801
47, 49, 52, 53
52, 49, 43, 44
49, 31, 43, 36
43, 46, 31, 28
28, 33, 32, 25
23, 30, 28, 21
14, 23, 21, 29
25, 23, 16, 20
14, 22, 32, 17
20, 21, 18, 16
23, 14, 24, 15
22, 19, 15, 14
21, 13, 18, 25
16, 10, 15, 12
10, 15, 10, 14
19, 11, 12, 19
9, 10, 13, 14
12, 15, 8, 16
14, 7, 12, 9
11, 13, 14, 9
13, 6, 14, 11
4, 8, 10, 10
11, 16, 9, 13
10, 6, 11, 15
5, 9, 9, 11
8, 14, 8, 13
7, 13, 12, 9
7, 13, 5, 8
13, 7, 7, 10
10, 11, 10, 5
14, 8, 7, 5
8, 12, 7, 12
6, 6, 10, 8
8, 10, 5, 12
13, 6, 7, 7
9, 6, 7, 4
12, 6, 11, 5
8, 10, 2, 7
10, 6, 8, 10
7, 8, 4, 14
7, 8, 14, 11
11, 7, 10, 7
8, 10, 6, 6
14, 12, 10, 8
18, 20, 15, 18
43, 51, 49, 49
203, 220, 243, 311
164, 95, 64, 52
14, 16, 8, 17
7, 11, 14, 3
7, 6, 6, 10
5, 7, 6, 6
6, 5, 7, 2
4, 2, 6, 6
7, 4, 6, 4
4, 2, 5, 2
5, 8, 4, 6
9, 4, 7, 2
3, 4, 3, 10
2, 4, 2, 6
0.000000, 2, 2, 3
2, 3, 3, 7
7, 3, 3, 5
5, 6, 3, 6
4, 4, 4, 2
2, 2, 3, 0.000000
4, 4, 3, 6
2, 1, 1, 2
6, 2, 3, 6
2, 1, 2, 4
0.000000, 5, 2, 2
4, 7, 6, 3
4, 1, 1, 3
3, 3, 1, 4
4, 0.000000, 2, 4
1, 4, 2, 2
0.000000, 3, 3, 1
6, 4, 1, 7
6, 2, 1, 1
2, 5, 3, 6
3, 2, 3, 2
4, 1, 3, 2
3, 2, 3, 0.000000
2, 2, 3, 0.000000
3, 1, 1, 1
1, 1, 6, 0.000000
3, 0.000000, 2, 1
4, 0.000000, 4, 2
2, 1, 1, 2
2, 2, 3, 1
0.000000, 0.000000, 0.000000, 1
3, 1, 1, 3
2, 7, 0.000000, 2
1, 6, 2, 2
2, 5, 2, 1
1, 3, 2, 2
1, 2, 2, 2
3, 1, 1, 2
1, 4, 3, 2
3, 1, 2, 0.000000
0.000000, 0.000000, 1, 1
4, 4, 2, 1
2, 2, 0.000000, 1
4, 2, 5, 2
18, 6, 9, 9
2, 3, 5, 2
3, 3, 1, 1
2, 0.000000, 1, 1
3, 3, 2, 3
4, 4, 6, 6
8, 9, 8, 7
2, 2, 1, 0.000000
0.000000, 3, 5, 2
4, 3, 3, 1
2, 2, 2, 5
4, 2, 0.000000, 1
0.000000, 2, 5, 3
6, 4, 1, 3
4, 4, 4, 7
3, 3, 4, 2
4, 3, 5, 2
3, 8, 5, 3
6, 2, 2, 6
3, 6, 4, 5
2, 3, 4, 6
5, 5, 4, 6
2, 3, 2, 8
3, 2, 1, 5
4, 6, 1, 5
7, 5, 2, 5
3, 7, 6, 7
3, 2, 6, 5
5, 8, 6, 3
8, 5, 9, 12
49, 48, 55, 58
199, 188, 150, 153
14, 15, 17, 11
11, 8, 10, 4
5, 5, 4, 2
6, 5, 1, 3
6, 4, 4, 4
3, 6, 2, 6
2, 3, 5, 6
4, 3, 1, 2
1, 2, 2, 3
6, 4, 3, 2
2, 4, 3, 2
2, 5, 3, 3
3, 5, 1, 2
2, 7, 6, 8
6, 12, 16, 9
20, 14, 7, 7
2, 4, 4, 1
6, 3, 6, 3
7, 5, 4, 5
4, 4, 5, 4
2, 7, 1, 6
3, 2, 6, 5
2, 7, 2, 3
5, 3, 2, 3
6, 5, 4, 4
3, 6, 7, 6
94, 115, 94, 114
14, 8, 12, 6
5, 4, 3, 3
4, 7, 4, 4
6, 3, 3, 5
2, 2, 7, 6
1, 2, 5, 2
3, 3, 4, 1
2, 6, 2, 5
6, 2, 3, 4
1, 4, 2, 3
2, 4, 3, 2
6, 3, 3, 2
5, 2, 6, 2
5, 5, 6, 4
3, 4, 6, 11
11, 16, 12, 13
36, 30, 29, 32
42, 68, 74, 57
16, 18, 14, 17
11, 15, 19, 7
12, 7, 11, 11
9, 13, 7, 7
6, 3, 5, 2
4, 6, 2, 3
0.000000, 5, 1, 4
3, 8, 2, 3
1, 2, 2, 1
2, 2, 1, 2
0.000000, 1, 5, 3
1, 6, 3, 4
1, 3, 1, 4
4, 1, 2, 1
4, 0.000000, 4, 0.000000
6, 2, 2, 1
2, 3, 1, 4
2, 5, 2, 1
2, 3, 3, 2
6, 5, 7, 8
4, 11, 9, 1
6, 4, 2, 5
4, 4, 5, 1
1, 6, 1, 6
1, 2, 6, 4
3, 6, 4, 0.000000
6, 3, 4, 1
4, 0.000000, 4, 0.000000
3, 3, 3, 2
0.000000, 4, 1, 3
2, 6, 4, 4
3, 2, 3, 5
3, 6, 4, 4
3, 3, 5, 1
0.000000, 3, 6, 2
2, 0.000000, 1, 5
5, 5, 4, 3
3, 4, 6, 2
3, 3, 7, 11
11, 14, 15, 14
25, 40, 44, 46
37, 24, 40, 30
26, 16, 14, 10
3, 8, 8, 8
5, 1, 4, 8
4, 3, 8, 5
9, 13, 14, 16
32, 31, 39, 27
9, 7, 6, 3
4, 7, 4, 4
6, 1, 5, 6
21, 11, 14, 15
10, 7, 15, 5
4, 4, 6, 2
14, 7, 15, 8
5, 6, 2, 4
3, 5, 1, 3
4, 3, 2, 3
0.000000, 2, 5, 0.000000
0.000000, 3, 5, 2
4, 4, 2, 3
2, 3, 2, 1
2, 1, 2, 1
2, 1, 2, 2
3, 1, 2, 1
1, 4, 2, 1
1, 3, 2, 2
5, 2, 2, 2
1, 3, 2, 3
6, 3, 3, 2
1, 1, 0.000000, 2
1, 1, 0.000000, 3
3, 1, 0.000000, 0.000000
4, 0.000000, 2, 1
2, 2, 1, 2
4, 2, 1, 8
2, 4, 0.000000, 5
4, 1, 0.000000, 1
1, 2, 5, 4
2, 3, 1, 1
2, 1, 1, 3
2, 2, 3, 0.000000
3, 3, 1, 1
6, 2, 1, 1
2, 2, 4, 4
5, 1, 2, 4
0.000000, 3, 1, 2
4, 3, 1, 4
5, 1, 0.000000, 5
2, 3, 5, 3
5, 4, 5, 4
2, 3, 2, 8
8, 10, 8, 10
20, 19, 26, 39
25, 16, 16, 18
6, 9, 7, 4
6, 4, 2, 1
4, 7, 0.000000, 3
1, 4, 4, 4
8, 4, 1, 6
5, 5, 5, 7
15, 19, 18, 11
6, 9, 10, 6
10, 2, 9, 6
15, 7, 17, 23
17, 23, 10, 14
3, 4, 7, 9
4, 2, 4, 2
6, 4, 4, 5
8
*END

*EOF

File: A_酸処理後_2θ_θ.asc
*TYPE		=  Raw
*CLASS		=  ASCII CLASS
*SAMPLE		=
*COMMENT	=
*FNAME		=  A_酸処理後_2θ_θ.asc
*DATE		=  07-Dec-23 14:01

*GROUP_COUNT	=  1
*GONIO		=  SmartLab(In-plane), 0.000000
*ATTACHMENT	=  χφZクレードル
*ASC		=  0, 0, 0.000000, 0.000000
*I_MONOCHRO	=  Soller_slit_5.0deg, 0.000000
*FILTER		=  None
*C_MONOCHRO	=  Bent, 0.000000
*SLIT_NAME	=  0, 入射スリット
*SLIT_NAME	=  1, 受光スリット1
*SLIT_NAME	=  2, 受光スリット2
*COUNTER	=  SC-70, 0
*POS_FORMAT	=  0
*SCAN_AXIS	=  2theta/theta
*MEAS_MODE	=  Continuous Scanning
*TARGET		=  29
*XRAY_CHAR	=  K-ALPHA
*WAVE_LENGTH1	=  1.54059
*WAVE_LENGTH2	=  1.54441
*THICKNESS	=  0, 0.000000
*MU		=  0, 0.000000
*SCAN_MODE	=  2theta/theta
*SPEED_DIM	=  sec./step
*XUNIT		=  deg.
*YUNIT		=  counts
*SCALE_MODE	=  1
*REP_COUNT	=  0
*SE_COUNT	=  0
*STD_MATERIAL	=  Unknown, Unknown, 0.000000, 0.000000, 0.000000, 0.000000, 0.000000, 0.000000
*LATT_CONS	=  0, Unknown, Unknown, 0.000000, 0.000000, 0.000000, 0.000000, 0.000000, 0.000000
*SEC_COUNT	=  1
*TSPEC_SIZE	=  0
*EXTRA_SIZE	=  0
*MEMO		=

*BEGIN
*GROUP		=  0
*START		=  2
*STOP		=  60
*STEP		=  0.01
*OFFSET		=  0.000000
*SPEED		=  0.0666667
*SLIT_SPEC	=  0, 1/2deg, 1, 0.000000
*SLIT_SPEC	=  1, 1/2deg, 1, 0.000000
*SLIT_SPEC	=  2, 0.300mm, 0.3, 0.000000
*KV		=  45
*MA		=  200
*LOW		=  0.000000
*HIGH		=  0.000000
*CTEMPER	=  0, 0.000000
*CTEMPER	=  1, 0.000000
*CTEMPER	=  2, 0.000000
*PAREX		=  0, 0.000000
*PAREX		=  1, 0.000000
*PAREX		=  2, 0.000000
*PAREX		=  3, 0.000000
*PAREX		=  4, 0.000000
*PAREX		=  5, 0.000000
*PAREX		=  6, 0.000000
*PAREX		=  7, 0.000000
*PAREX		=  8, 0.000000
*PAREX		=  9, 0.000000
*PAREX		=  10, 0.000000
*PAREX		=  11, 0.000000
*PAREX		=  12, 0.000000
*PAREX		=  13, 0.000000
*PAREX		=  14, 0.000000
*PAREX		=  15, 0.000000
*FULL_SCALE	=  37998
*INDEX		=  0, 0, 0
*COUNT		=  5801
49, 76, 72, 73
52, 46, 56, 45
52, 50, 40, 38
31, 24, 44, 34
33, 33, 41, 27
24, 20, 19, 31
20, 31, 33, 38
22, 22, 33, 26
18, 24, 26, 19
22, 19, 17, 19
17, 16, 23, 20
17, 14, 19, 17
20, 20, 9, 16
22, 17, 23, 31
16, 14, 16, 27
22, 13, 14, 22
21, 18, 16, 12
18, 12, 18, 15
12, 15, 20, 11
15, 13, 11, 9
6, 9, 21, 11
17, 6, 13, 15
8, 14, 15, 17
8, 13, 12, 7
12, 11, 13, 11
12, 12, 15, 18
11, 13, 12, 15
8, 11, 14, 13
20, 12, 15, 10
13, 14, 8, 14
14, 20, 14, 11
9, 16, 12, 15
5, 13, 11, 9
16, 16, 18, 14
18, 20, 19, 18
19, 29, 25, 19
31, 33, 26, 28
58, 61, 61, 78
190, 217, 236, 202
997, 1139, 1265, 1338
162, 147, 135, 123
34, 32, 38, 22
21, 20, 14, 14
13, 17, 20, 16
12, 11, 8, 7
13, 9, 5, 10
10, 11, 6, 5
8, 14, 8, 8
7, 3, 12, 10
6, 11, 7, 10
9, 9, 5, 5
8, 8, 5, 8
14, 15, 3, 7
8, 10, 9, 6
3, 5, 3, 11
6, 3, 5, 9
11, 6, 6, 5
8, 8, 4, 6
5, 3, 7, 4
9, 7, 12, 2
9, 5, 3, 6
4, 8, 6, 7
12, 10, 7, 1
5, 9, 8, 9
10, 6, 4, 8
2, 5, 5, 4
4, 4, 3, 6
9, 4, 5, 5
5, 8, 5, 5
4, 5, 5, 7
9, 5, 7, 6
6, 10, 5, 8
4, 5, 5, 8
7, 5, 11, 8
7, 4, 8, 3
9, 6, 5, 6
4, 2, 2, 8
6, 8, 5, 4
6, 10, 7, 6
4, 2, 3, 5
5, 6, 1, 4
5, 7, 3, 4
3, 7, 7, 4
7, 3, 4, 4
3, 10, 8, 3
7, 3, 4, 4
5, 6, 6, 7
2, 2, 3, 8
16, 17, 14, 19
84, 85, 113, 92
8, 8, 11, 12
6, 4, 7, 7
5, 6, 3, 4
1, 3, 3, 5
6, 4, 2, 2
4, 4, 4, 2
4, 4, 1, 3
4, 4, 7, 6
7, 4, 6, 6
2, 2, 1, 6
2, 5, 12, 1
5, 3, 7, 7
5, 5, 10, 2
5, 3, 6, 2
1, 7, 3, 3
3, 1, 2, 2
4, 2, 3, 1
1, 4, 3, 5
5, 2, 6, 7
0.000000, 8, 6, 9
28, 19, 56, 32
12, 16, 13, 7
4, 3, 3, 6
7, 2, 5, 7
7, 5, 4, 3
3, 6, 6, 2
2, 2, 5, 4
7, 3, 2, 5
1, 5, 5, 6
6, 3, 2, 1
3, 3, 5, 3
8, 3, 1, 3
4, 6, 2, 2
5, 2, 2, 6
5, 4, 4, 3
3, 2, 4, 5
7, 7, 6, 4
4, 8, 6, 7
8, 13, 8, 9
38, 48, 45, 54
76, 75, 68, 74
24, 10, 10, 12
8, 7, 6, 7
4, 6, 3, 6
6, 2, 8, 2
3, 3, 3, 3
8, 4, 7, 8
3, 5, 8, 11
8, 5, 5, 2
42, 29, 40, 42
93, 73, 61, 60
5, 11, 9, 13
8, 8, 3, 11
3, 7, 3, 8
10, 5, 5, 5
3, 1, 6, 3
6, 7, 6, 6
5, 2, 3, 3
6, 2, 2, 4
5, 5, 3, 5
6, 5, 3, 6
5, 2, 6, 5
2, 4, 7, 5
6, 8, 6, 3
6, 2, 9, 7
7, 10, 9, 11
22, 19, 19, 31
35, 38, 52, 21
9, 12, 9, 5
5, 6, 4, 7
7, 4, 7, 4
3, 5, 4, 6
11, 11, 12, 10
19, 6, 5, 7
5, 4, 7, 3
3, 4, 0.000000, 7
4, 1, 4, 3
4, 3, 3, 3
3, 4, 4, 4
5, 2, 3, 0.000000
3, 1, 5, 4
3, 5, 6, 0.000000
6, 5, 1, 2
5, 2, 2, 4
3, 2, 4, 1
3, 2, 4, 5
1, 5, 4, 5
4, 5, 2, 10
6, 2, 6, 4
3, 4, 7, 5
4, 3, 5, 1
5, 5, 7, 4
4, 3, 2, 1
3, 7, 5, 6
17, 4, 9, 8
54, 58, 65, 63
62, 52, 45, 36
11, 12, 12, 12
19, 10, 15, 16
4, 7, 5, 2
2, 6, 6, 5
10, 6, 9, 10
9, 3, 7, 5
8, 3, 3, 3
5, 4, 2, 2
5, 3, 4, 3
5, 2, 5, 3
4, 2, 2, 4
1, 4, 3, 4
4, 1, 5, 1
2, 6, 4, 8
0.000000, 1, 6, 4
3, 1, 1, 2
1, 0.000000, 6, 6
2, 3, 3, 5
4, 2, 2, 5
2, 5, 5, 4
1, 4, 6, 6
5, 5, 3, 3
3, 1, 1, 3
4, 1, 2, 2
4, 7, 1, 3
4, 5, 2, 3
3, 7, 2, 2
3, 1, 1, 4
3, 3, 1, 1
1, 4, 1, 3
5, 3, 2, 3
2, 4, 5, 6
3, 4, 2, 6
6, 4, 8, 2
7, 2, 8, 7
17, 22, 15, 15
35, 37, 37, 33
13, 16, 14, 17
6, 2, 3, 4
5, 5, 1, 5
2, 7, 3, 2
3, 1, 1, 5
3, 3, 0.000000, 3
10, 8, 13, 16
24, 16, 27, 19
5, 4, 7, 2
3, 5, 10, 1
3, 4, 7, 3
3, 11, 9, 7
20, 21, 26, 27
26, 18, 23, 9
5, 8, 4, 3
7, 9, 4, 6
4, 1, 3, 2
4, 3, 1, 2
2, 6, 3, 6
5, 2, 2, 3
16, 9, 11, 10
27, 32, 28, 24
13, 9, 8, 7
7, 6, 6, 3
10, 3, 2, 4
4, 3, 2, 3
4, 2, 4, 2
5, 5, 3, 4
5, 6, 3, 3
3, 4, 1, 5
3, 2, 1, 3
4, 4, 2, 3
1, 6, 0.000000, 4
4, 1, 3, 1
7, 4, 3, 2
3, 4, 4, 1
6, 4, 5, 3
1, 1, 1, 0.000000
4, 3, 4, 3
2, 2, 3, 2
4, 0.000000, 2, 4
3, 4, 3, 2
3, 5, 0.000000, 4
4, 3, 4, 2
2, 2, 2, 3
4, 4, 2, 3
6, 1, 4, 4
4, 4, 7, 6
12, 4, 11, 13
18, 16, 27, 27
30, 26, 25, 39
19, 9, 15, 16
15, 11, 6, 3
6, 5, 7, 5
5, 8, 6, 9
5, 5, 4, 1
5, 4, 4, 4
4, 4, 3, 7
1, 3, 1, 3
5, 5, 3, 0.000000
2, 2, 3, 1
2, 3, 10, 3
3, 7, 3, 4
3, 2, 5, 2
4, 6, 4, 6
11, 6, 16, 7
14
*END

*EOF